File: FeXAFS_REL_Map1_spot4_V_Fe_Ca_Sr_002.dat
# XDI/1.0  GSE/1.0
# Beamline.name:  13-ID-E, GSECARS
# Monochromator.name:  Si(111), LN2 Cooled
# Monochromator.dspacing:  3.13477
# Facility.name: APS
# Facility.xray_source: 3.6 cm undulator
# Detectors.i0:  20cm ion chamber, He
# Detectors.ifluor:  Si SDD Vortex ME-4, 4 elements
# Detectors.ifluor_electronics:  Quantum Xspress3 3.1.10
# Column.1: energy eV
# Column.2: mufluor
# Column.3: i0
# Column.4: ifluor (corrected for deadtime)
# Column.5: ifluor_raw (not corrected)
# Column.7: itrans
# Column.8: irefer
# Scan.start_time: 2015-03-26 13:01:58
# ///
# summed fe_ka fluorescence data from FeXAFS_REL_Map1_spot4_V_Fe_Ca_Sr.002
# Dead-time correction applied
#---------------------------------
#        energy         mufluor         i0          fluor_dtc        fluor_raw        counttime        itrans         irefer
      7012.005      0.03301687     241406.000       7970.47        7966.00          1.000         16.000        -88.000
      7017.004      0.03570610     283788.000      10133       10126.00          1.000         16.000        -86.000
      7022.000      0.03838438     286576.000      11000       10992.00          1.000         16.000        -85.000
      7026.998      0.04091087     286696.000      11729       11720.00          1.000         16.000        -87.000
      7032.009      0.04387182     286449.000      12567       12557.00          1.000         16.000        -87.000
      7037.015      0.04780734     286500.000      13696.8       13685.00          1.000         15.000        -87.000
      7041.996      0.05307852     284691.000      15111       15097.00          1.000         16.000        -96.000
      7047.004      0.05755787     281484.000      16201.6       16186.00          1.000         16.000        -97.000
      7052.001      0.06439323     281226.000      18109.1       18090.00          1.000         16.000        -99.000
      7057.004      0.07179513     280326.000      20126       20103.00          1.000         15.000        -99.000
      7062.005      0.07938605     279740.000      22207.5       22180.00          1.000         16.000        -84.000
      7067.008      0.08882808     276235.000      24537.4       24504.00          1.000         16.000        -77.000
      7072.008      0.100711     276549.000      27851.6       27810.00          1.000         15.000        -78.000
      7077.008      0.113728     278420.000      31664       31611.00          1.000         16.000        -77.000
      7082.000      0.132422     277695.000      36773.1       36703.00          1.000         16.000        -89.000
      7087.003      0.155079     277971.000      43107.5       43013.00          1.000         16.000        -88.000
      7092.006      0.188562     275999.000      52042.8       51909.00          1.000         16.000        -88.000
      7097.001      0.233051     276284.000      64388.3       64187.00          1.000         16.000        -89.000
      7101.996      0.301664     277625.000      83749.4       83413.00          1.000         16.000        -91.000
      7102.199      0.305438     275912.000      84274.1       83932.00          1.000         16.000        -90.000
      7102.404      0.311562     275969.000      85981.4       85625.00          1.000         16.000        -88.000
      7102.600      0.313935     276049.000      86661.4       86300.00          1.000         17.000        -87.000
      7102.795      0.319148     276198.000      88148.2       87775.00          1.000         16.000        -87.000
      7102.998      0.323376     275948.000      89235.1       88852.00          1.000         16.000        -88.000
      7103.210      0.326896     275049.000      89912.3       89526.00          1.000         16.000        -89.000
      7103.405      0.330179     274908.000      90768.9       90375.00          1.000         16.000        -87.000
      7103.604      0.335668     274855.000      92260       91852.00          1.000         15.000        -88.000
      7103.807      0.339096     274997.000      93250.5       92832.00          1.000         16.000        -89.000
      7104.002      0.343446     274747.000      94360.7       93935.00          1.000         16.000        -89.000
      7104.198      0.349813     274667.000      96082.1       95641.00          1.000         16.000        -89.000
      7104.401      0.354954     274481.000      97428       96973.00          1.000         16.000        -87.000
      7104.613      0.360791     274543.000      99052.6       98584.00          1.000         16.000        -88.000
      7104.805      0.363726     274520.000      99850.1       99376.00          1.000         16.000        -90.000
      7105.011      0.37074     274406.000     101733      101238.00          1.000         16.000        -89.000
      7105.200      0.377728     274276.000     103602      103092.00          1.000         16.000        -90.000
      7105.402      0.383279     274431.000     105184      104657.00          1.000         16.000        -91.000
      7105.605      0.390572     274266.000     107121      106577.00          1.000         16.000        -91.000
      7105.804      0.395073     274225.000     108339      107785.00          1.000         15.000        -92.000
      7106.000      0.39945     274301.000     109570      108999.00          1.000         15.000        -92.000
      7106.196      0.406305     274398.000     111489      110898.00          1.000         16.000        -79.000
      7106.398      0.411581     274106.000     112817      112213.00          1.000         16.000        -80.000
      7106.607      0.415685     274116.000     113946      113331.00          1.000         16.000        -79.000
      7106.803      0.425691     273983.000     116632      115986.00          1.000         16.000        -79.000
      7106.996      0.430263     274124.000     117945      117283.00          1.000         16.000        -80.000
      7107.215      0.439029     274042.000     120312      119629.00          1.000         16.000        -79.000
      7107.391      0.443582     274058.000     121567      120870.00          1.000         16.000        -79.000
      7107.613      0.453291     273952.000     124180      123451.00          1.000         16.000        -79.000
      7107.803      0.462953     273974.000     126837      126076.00          1.000         16.000        -80.000
      7108.008      0.473302     273773.000     129577      128789.00          1.000         16.000        -80.000
      7108.195      0.481302     273879.000     131818      131001.00          1.000         16.000        -80.000
      7108.404      0.491864     273945.000     134744      133887.00          1.000         16.000        -80.000
      7108.606      0.501478     273866.000     137338      136446.00          1.000         16.000        -79.000
      7108.805      0.517105     273718.000     141541      140597.00          1.000         16.000        -79.000
      7108.995      0.530157     273709.000     145109      144117.00          1.000         16.000        -80.000
      7109.201      0.54568     273457.000     149220      148170.00          1.000         16.000        -79.000
      7109.403      0.560602     273549.000     153352      152248.00          1.000         16.000        -79.000
      7109.603      0.578856     273451.000     158289      157112.00          1.000         16.000        -79.000
      7109.809      0.593786     273399.000     162340      161106.00          1.000         15.000        -80.000
      7110.008      0.616462     273431.000     168560      167233.00          1.000         16.000        -80.000
      7110.198      0.644429     273499.000     176251      174799.00          1.000         15.000        -79.000
      7110.400      0.678486     273296.000     185427      183822.00          1.000         16.000        -79.000
      7110.606      0.717057     273159.000     195871      194080.00          1.000         15.000        -79.000
      7110.799      0.75988     273315.000     207687      205677.00          1.000         16.000        -79.000
      7111.002      0.824458     273342.000     225359      222997.00          1.000         15.000        -79.000
      7111.208      0.904421     273347.000     247221      244389.00          1.000         16.000        -79.000
      7111.411      1.00928     273296.000     275831      272314.00          1.000         16.000        -78.000
      7111.604      1.13152     273255.000     309193      304761.00          1.000         16.000        -78.000
      7111.790      1.26839     273057.000     346343      340807.00          1.000         16.000        -78.000
      7112.003      1.39706     272811.000     381132      374410.00          1.000         16.000        -79.000
      7112.205      1.50005     272849.000     409287      401554.00          1.000         16.000        -79.000
      7112.408      1.58016     273138.000     431602      423002.00          1.000         16.000        -79.000
      7112.604      1.63783     273015.000     447153      437915.00          1.000         16.000        -79.000
      7112.801      1.70252     272906.000     464629      454665.00          1.000         16.000        -79.000
      7113.000      1.79309     273038.000     489581      478526.00          1.000         16.000        -80.000
      7113.210      1.88908     272853.000     515442      503182.00          1.000         16.000        -80.000
      7113.403      1.97154     272901.000     538036      524669.00          1.000         16.000        -79.000
      7113.605      2.00264     272853.000     546426      532652.00          1.000         16.000        -79.000
      7113.802      1.98616     272753.000     541731      528164.00          1.000         16.000        -78.000
      7113.995      1.91416     272481.000     521572      508982.00          1.000         16.000        -78.000
      7114.204      1.82801     272615.000     498343      486848.00          1.000         16.000        -77.000
      7114.407      1.75332     272762.000     478239      467667.00          1.000         16.000        -78.000
      7114.610      1.70769     272676.000     465647      455627.00          1.000         16.000        -78.000
      7114.810      1.67995     272807.000     458302      448571.00          1.000         16.000        -79.000
      7115.000      1.67511     272761.000     456903      447239.00          1.000         16.000        -78.000
      7115.206      1.68405     272557.000     458999      449251.00          1.000         16.000        -78.000
      7115.406      1.7001     272263.000     462873      452954.00          1.000         16.000        -78.000
      7115.602      1.72576     272311.000     469944      459707.00          1.000         16.000        -77.000
      7115.815      1.75456     272370.000     477890      467312.00          1.000         16.000        -77.000
      7116.011      1.77549     272526.000     483868      472997.00          1.000         17.000        -75.000
      7116.211      1.81846     272703.000     495900      484500.00          1.000         16.000        -76.000
      7116.404      1.85932     272221.000     506146      494284.00          1.000         16.000        -77.000
      7116.611      1.89803     272365.000     516957      504545.00          1.000         16.000        -78.000
      7116.817      1.92962     272347.000     525528      512724.00          1.000         16.000        -78.000
      7117.007      1.9736     272582.000     537967      524556.00          1.000         16.000        -77.000
      7117.200      2.01596     272571.000     549494      535490.00          1.000         17.000        -77.000
      7117.410      2.05915     272365.000     560842      546271.00          1.000         16.000        -78.000
      7117.610      2.10061     271995.000     571356      556206.00          1.000         16.000        -78.000
      7117.806      2.16059     271917.000     587501      571462.00          1.000         17.000        -77.000
      7118.006      2.23427     271824.000     607328      590216.00          1.000         16.000        -77.000
      7118.206      2.31792     271910.000     630264      611830.00          1.000         16.000        -77.000
      7118.406      2.41317     271992.000     656363      636377.00          1.000         16.000        -76.000
      7118.596      2.52268     272171.000     686600      664742.00          1.000         16.000        -76.000
      7118.809      2.63862     271820.000     717230      693325.00          1.000         16.000        -76.000
      7119.015      2.77021     271520.000     752169      725876.00          1.000         16.000        -76.000
      7119.212      2.9265     271821.000     795483      766098.00          1.000         16.000        -76.000
      7119.412      3.08896     271814.000     839624      806806.00          1.000         16.000        -76.000
      7119.612      3.27961     271904.000     891740      854696.00          1.000         16.000        -75.000
      7119.808      3.495     271645.000     949399      907401.00          1.000         16.000        -75.000
      7120.002      3.71494     271468.000    1.00849e+06      961033.00          1.000         16.000        -76.000
      7120.202      3.96404     271049.000    1.07445e+06     1020501.00          1.000         16.000        -76.000
      7120.395      4.23209     271067.000    1.14718e+06     1085569.00          1.000         16.000        -76.000
      7120.612      4.52191     271120.000    1.22598e+06     1155579.00          1.000         16.000        -75.000
      7120.808      4.81415     271319.000    1.30617e+06     1226219.00          1.000         17.000        -76.000
      7121.015      5.1387     271273.000    1.39399e+06     1302756.00          1.000         16.000        -77.000
      7121.202      5.46071     271273.000    1.48134e+06     1378107.00          1.000         16.000        -76.000
      7121.405      5.79083     271290.000    1.57099e+06     1454715.00          1.000         16.000        -76.000
      7121.602      6.12938     271261.000    1.66266e+06     1531998.00          1.000         16.000        -76.000
      7121.805      6.43438     271217.000    1.74511e+06     1601091.00          1.000         16.000        -75.000
      7122.005      6.77484     271418.000    1.83881e+06     1678449.00          1.000         16.000        -77.000
      7122.209      7.07029     271330.000    1.91838e+06     1743871.00          1.000         16.000        -77.000
      7122.399      7.34147     270894.000    1.98876e+06     1800690.00          1.000         17.000        -77.000
      7122.602      7.60673     270679.000    2.05898e+06     1857210.00          1.000         16.000        -76.000
      7122.812      7.83329     270736.000    2.12075e+06     1906547.00          1.000         16.000        -77.000
      7123.003      8.06446     270741.000    2.18338e+06     1955865.00          1.000         16.000        -76.000
      7123.203      8.2716     270848.000    2.24035e+06     2000305.00          1.000         16.000        -76.000
      7123.410      8.47905     270601.000    2.29444e+06     2042772.00          1.000         16.000        -78.000
      7123.603      8.66644     270739.000    2.34634e+06     2082902.00          1.000         17.000        -78.000
      7123.807      8.82328     270262.000    2.3846e+06     2111946.00          1.000         17.000        -78.000
      7124.017      8.99646     270366.000    2.43234e+06     2148326.00          1.000         16.000        -78.000
      7124.210      9.17119     270213.000    2.47817e+06     2183007.00          1.000         17.000        -79.000
      7124.411      9.34102     270060.000    2.52263e+06     2216586.00          1.000         17.000        -78.000
      7124.598      9.50847     269990.000    2.56719e+06     2250058.00          1.000         16.000        -78.000
      7124.814      9.67539     270010.000    2.61245e+06     2283772.00          1.000         17.000        -77.000
      7125.015      9.8277     269779.000    2.65131e+06     2312355.00          1.000         17.000        -81.000
      7125.202      9.96756     269948.000    2.69072e+06     2341332.00          1.000         17.000        -89.000
      7125.415     10.1365     270146.000    2.73832e+06     2376334.00          1.000         17.000        -90.000
      7125.599     10.2647     270011.000    2.77158e+06     2400039.00          1.000         16.000        -90.000
      7125.799     10.4185     269883.000    2.81177e+06     2429696.00          1.000         17.000        -88.000
      7126.003     10.5531     269931.000    2.84862e+06     2455845.00          1.000         16.000        -88.000
      7126.213     10.665     269729.000    2.87667e+06     2475941.00          1.000         16.000        -88.000
      7126.407     10.7957     269510.000    2.90956e+06     2499620.00          1.000         17.000        -87.000
      7126.601     10.8892     269103.000    2.93033e+06     2513910.00          1.000         16.000        -88.000
      7126.808     10.9848     269183.000    2.95693e+06     2533131.00          1.000         16.000        -87.000
      7127.011     11.0868     268993.000    2.98227e+06     2550913.00          1.000         17.000        -87.000
      7127.202     11.1488     269340.000    3.00281e+06     2564739.00          1.000         17.000        -88.000
      7127.402     11.2357     269304.000    3.02582e+06     2581339.00          1.000         17.000        -86.000
      7127.606     11.3214     269139.000    3.04704e+06     2596470.00          1.000         17.000        -86.000
      7127.806     11.3696     268742.000    3.05549e+06     2601935.00          1.000         16.000        -87.000
      7128.000     11.4332     268675.000    3.07182e+06     2613816.00          1.000         17.000        -87.000
      7128.207     11.4565     269000.000    3.08179e+06     2620093.00          1.000         16.000        -86.000
      7128.404     11.5066     269149.000    3.097e+06     2630355.00          1.000         16.000        -87.000
      7128.608     11.5369     268992.000    3.10333e+06     2634972.00          1.000         17.000        -87.000
      7128.812     11.5638     269027.000    3.11097e+06     2639787.00          1.000         16.000        -87.000
      7129.006     11.594     268869.000    3.11727e+06     2644668.00          1.000         17.000        -86.000
      7129.206     11.6012     268531.000    3.11528e+06     2642790.00          1.000         16.000        -87.000
      7129.403     11.6204     266946.000    3.10202e+06     2633583.00          1.000         17.000        -88.000
      7129.611     11.6089     270504.000    3.14026e+06     2659991.00          1.000         17.000        -88.000
      7129.801     11.6183     270279.000    3.14019e+06     2659985.00          1.000         16.000        -88.000
      7130.008     11.6359     270325.000    3.14548e+06     2663704.00          1.000         16.000        -86.000
      7130.212     11.6194     270352.000    3.14134e+06     2661007.00          1.000         17.000        -86.000
      7130.406     11.5921     270508.000    3.13574e+06     2656282.00          1.000         16.000        -87.000
      7130.603     11.6087     270423.000    3.13927e+06     2659587.00          1.000         17.000        -86.000
      7130.814     11.6162     270265.000    3.13946e+06     2660210.00          1.000         16.000        -87.000
      7131.015     11.6144     270275.000    3.13907e+06     2659538.00          1.000         17.000        -88.000
      7131.209     11.6205     269976.000    3.13726e+06     2657985.00          1.000         17.000        -88.000
      7131.406     11.6273     269943.000    3.13872e+06     2659682.00          1.000         17.000        -89.000
      7131.607     11.6195     269980.000    3.13704e+06     2658318.00          1.000         17.000        -87.000
      7131.817     11.6108     270222.000    3.13748e+06     2658440.00          1.000         17.000        -87.000
      7132.011     11.61     270227.000    3.13734e+06     2658092.00          1.000         16.000        -87.000
      7132.212     11.5869     269933.000    3.12767e+06     2651265.00          1.000         16.000        -89.000
      7132.409     11.5912     270065.000    3.13038e+06     2653484.00          1.000         16.000        -88.000
      7132.607     11.5759     270013.000    3.12564e+06     2649725.00          1.000         16.000        -89.000
      7132.814     11.5749     269881.000    3.12385e+06     2648808.00          1.000         17.000        -90.000
      7133.005     11.5621     270099.000    3.1229e+06     2647965.00          1.000         17.000        -89.000
      7133.219     11.5671     270318.000    3.1268e+06     2651112.00          1.000         17.000        -89.000
      7133.413     11.5563     270084.000    3.12116e+06     2647120.00          1.000         17.000        -90.000
      7133.614     11.5328     269778.000    3.11129e+06     2640044.00          1.000         16.000        -89.000
      7133.811     11.522     270002.000    3.11097e+06     2639990.00          1.000         16.000        -88.000
      7134.012     11.522     270045.000    3.11145e+06     2640658.00          1.000         17.000        -89.000
      7134.203     11.5136     270102.000    3.10984e+06     2638901.00          1.000         16.000        -89.000
      7134.400     11.5038     270035.000    3.10642e+06     2637501.00          1.000         16.000        -90.000
      7134.611     11.4926     270264.000    3.10604e+06     2636627.00          1.000         17.000        -88.000
      7134.805     11.4898     270190.000    3.10443e+06     2636045.00          1.000         17.000        -89.000
      7135.006     11.4927     270278.000    3.10622e+06     2637229.00          1.000         16.000        -89.000
      7135.207     11.4748     270384.000    3.1026e+06     2634504.00          1.000         16.000        -89.000
      7135.405     11.4885     270056.000    3.10253e+06     2635018.00          1.000         17.000        -89.000
      7135.609     11.4522     270207.000    3.09445e+06     2628962.00          1.000         17.000        -91.000
      7135.810     11.4626     270250.000    3.09777e+06     2631536.00          1.000         17.000        -91.000
      7136.011     11.4369     270236.000    3.09067e+06     2626661.00          1.000         17.000        -91.000
      7136.208     11.4177     270175.000    3.08477e+06     2622033.00          1.000         16.000        -91.000
      7136.416     11.4129     270278.000    3.08466e+06     2622361.00          1.000         16.000        -91.000
      7136.610     11.3844     270491.000    3.07939e+06     2618266.00          1.000         17.000        -92.000
      7136.818     11.362     270565.000    3.07417e+06     2614445.00          1.000         17.000        -91.000
      7137.022     11.3353     270417.000    3.06526e+06     2607716.00          1.000         17.000        -90.000
      7140.018     11.1074     270735.000    3.00715e+06     2567875.00          1.000         17.000        -91.000
      7143.007     10.9416     271091.000    2.96617e+06     2538980.00          1.000         17.000        -90.000
      7146.021     10.8522     271288.000    2.94407e+06     2523073.00          1.000         16.000        -79.000
      7149.018     10.6754     271489.000    2.89825e+06     2490760.00          1.000         16.000        -90.000
      7152.008     10.4269     271673.000    2.83271e+06     2444228.00          1.000         16.000        -90.000
      7155.011     10.2958     270806.000    2.78818e+06     2412366.00          1.000         16.000        -89.000
      7158.016     10.2106     270340.000    2.76033e+06     2392159.00          1.000         16.000        -90.000
      7161.004     10.227     269528.000    2.75647e+06     2388994.00          1.000         17.000        -88.000
      7164.014     10.3585     269506.000    2.79168e+06     2415244.00          1.000         17.000        -88.000
      7167.004     10.5349     268915.000    2.83299e+06     2444543.00          1.000         17.000        -90.000
      7170.010     10.7113     267820.000    2.86871e+06     2469829.00          1.000         16.000        -90.000
      7173.015     10.8927     267719.000    2.91617e+06     2504067.00          1.000         17.000        -90.000
      7176.006     11.0317     267044.000    2.94596e+06     2525038.00          1.000         17.000        -90.000
      7179.016     11.0387     266950.000    2.94677e+06     2525377.00          1.000         16.000        -91.000
      7182.009     11.0358     266541.000    2.94149e+06     2521873.00          1.000         16.000        -90.000
      7185.004     11.0449     265780.000    2.93551e+06     2517117.00          1.000         16.000        -89.000
      7188.006     11.0604     265200.000    2.93322e+06     2515747.00          1.000         16.000        -89.000
      7191.000     11.0728     264395.000    2.9276e+06     2512045.00          1.000         16.000        -90.000
      7194.006     11.0956     264440.000    2.93412e+06     2516881.00          1.000         16.000        -90.000
      7196.999     11.0748     264272.000    2.92676e+06     2511269.00          1.000         16.000        -90.000
      7200.004     11.0966     263156.000    2.92013e+06     2506839.00          1.000         16.000        -89.000
      7203.005     11.1007     262530.000    2.91426e+06     2502604.00          1.000         16.000        -91.000
      7205.998     11.0555     263418.000    2.91221e+06     2501208.00          1.000         15.000        -90.000
      7209.011     11.0708     263978.000    2.92244e+06     2508901.00          1.000         16.000        -89.000
      7212.000     11.0359     262820.000    2.90046e+06     2493411.00          1.000         15.000        -89.000
      7215.005     10.9988     262930.000    2.89193e+06     2487184.00          1.000         16.000        -89.000
      7217.988     11.0009     263477.000    2.89848e+06     2491980.00          1.000         16.000        -89.000
      7220.995     11.0054     262586.000    2.88986e+06     2485903.00          1.000         16.000        -89.000
      7223.990     10.9957     262894.000    2.8907e+06     2485912.00          1.000         16.000        -88.000
      7226.995     11.0123     262473.000    2.89042e+06     2485518.00          1.000         16.000        -91.000
      7230.000     11.0468     261793.000    2.89198e+06     2486895.00          1.000         16.000        -89.000
      7232.993     11.0589     261556.000    2.89252e+06     2487005.00          1.000         16.000        -90.000
      7235.995     11.0705     261161.000    2.89117e+06     2486317.00          1.000         16.000        -88.000
      7238.994     11.088     261326.000    2.89759e+06     2490904.00          1.000         16.000        -89.000
      7241.991     11.1334     257522.000    2.8671e+06     2469021.00          1.000         16.000        -89.000
      7245.002     11.14     259323.000    2.88886e+06     2484112.00          1.000         16.000        -89.000
      7247.991     11.1514     259321.000    2.8918e+06     2486518.00          1.000         16.000        -88.000
      7251.006     11.1582     259097.000    2.89106e+06     2486150.00          1.000         15.000        -89.000
      7254.004     11.1857     257875.000    2.8845e+06     2481700.00          1.000         15.000        -89.000
      7256.997     11.2269     256712.000    2.88209e+06     2479425.00          1.000         16.000        -89.000
      7259.990     11.2518     257858.000    2.90137e+06     2493854.00          1.000         16.000        -81.000
      7262.996     11.2971     257673.000    2.91097e+06     2500954.00          1.000         16.000        -77.000
      7266.004     11.4802     232489.000    2.66903e+06     2326370.00          1.000         16.000        -77.000
      7268.994     11.3948     254569.000    2.90076e+06     2493640.00          1.000         16.000        -77.000
      7271.986     11.4152     257678.000    2.94144e+06     2522545.00          1.000         16.000        -77.000
      7274.985     11.4236     257094.000    2.93694e+06     2518786.00          1.000         16.000        -78.000
      7277.979     11.4258     257517.000    2.94234e+06     2523274.00          1.000         16.000        -77.000
      7281.000     11.4515     257381.000    2.94739e+06     2526629.00          1.000         16.000        -77.000
      7283.996     11.435     256576.000    2.93395e+06     2517065.00          1.000         16.000        -77.000
      7286.985     11.432     256416.000    2.93134e+06     2514983.00          1.000         16.000        -77.000
      7289.986     11.4231     257001.000    2.93574e+06     2518109.00          1.000         16.000        -78.000
      7292.983     11.413     256851.000    2.93144e+06     2514813.00          1.000         16.000        -78.000
      7295.975     11.414     256706.000    2.93005e+06     2513929.00          1.000         17.000        -78.000
      7298.988     11.4075     256297.000    2.92372e+06     2508764.00          1.000         16.000        -78.000
      7301.989     11.4012     256478.000    2.92415e+06     2509443.00          1.000         17.000        -85.000
      7304.999     11.3884     256823.000    2.9248e+06     2510110.00          1.000         17.000        -90.000
      7307.981     11.4187     256509.000    2.929e+06     2513359.00          1.000         16.000        -89.000
      7310.983     11.4207     254011.000    2.90098e+06     2493179.00          1.000         17.000        -90.000
      7313.984     11.4433     253471.000    2.90054e+06     2493145.00          1.000         16.000        -83.000
      7316.991     11.4429     253173.000    2.89704e+06     2490708.00          1.000         16.000        -80.000
      7319.983     11.4814     253106.000    2.90601e+06     2496726.00          1.000         16.000        -82.000
      7322.992     11.4979     253146.000    2.91064e+06     2500427.00          1.000         16.000        -81.000
      7325.975     11.4933     253009.000    2.90791e+06     2497944.00          1.000         16.000        -80.000
      7328.968     11.5001     252889.000    2.90825e+06     2498557.00          1.000         15.000        -81.000
      7331.981     11.5167     253092.000    2.91477e+06     2502816.00          1.000         16.000        -80.000
      7334.983     11.5402     252416.000    2.91292e+06     2501215.00          1.000         16.000        -80.000
      7337.980     11.5487     251904.000    2.90916e+06     2498659.00          1.000         17.000        -81.000
      7340.983     11.5507     252184.000    2.9129e+06     2501727.00          1.000         17.000        -80.000
      7343.985     11.5768     252342.000    2.92132e+06     2507565.00          1.000         17.000        -80.000
      7346.979     11.5543     252756.000    2.92041e+06     2506876.00          1.000         16.000        -82.000
      7349.986     11.5686     252943.000    2.92619e+06     2511029.00          1.000         16.000        -81.000
      7352.989     11.5807     250724.000    2.90357e+06     2494886.00          1.000         16.000        -82.000
      7355.977     11.5854     250343.000    2.90033e+06     2492379.00          1.000         16.000        -82.000
      7358.982     11.591     250496.000    2.9035e+06     2494295.00          1.000         16.000        -80.000
      7361.981     11.6131     250548.000    2.90965e+06     2499024.00          1.000         17.000        -81.000