File: SrXAFS_REL_Map1_spot14_Sr_004.dat
# XDI/1.0  GSE/1.0
# Beamline.name:  13-ID-E, GSECARS
# Monochromator.name:  Si(111), LN2 Cooled
# Monochromator.dspacing:  3.13477
# Facility.name: APS
# Facility.xray_source: 3.6 cm undulator
# Detectors.i0:  20cm ion chamber, He
# Detectors.ifluor:  Si SDD Vortex ME-4, 4 elements
# Detectors.ifluor_electronics:  Quantum Xspress3 3.1.10
# Column.1: energy eV
# Column.2: mufluor
# Column.3: i0
# Column.4: ifluor (corrected for deadtime)
# Column.5: ifluor_raw (not corrected)
# Column.7: itrans
# Column.8: irefer
# Scan.start_time: 2015-03-26 14:20:19
# ///
# summed sr_ka fluorescence data from SrXAFS_REL_Map1_spot14_Sr.004
# Dead-time correction applied
#---------------------------------
#        energy         mufluor         i0          fluor_dtc        fluor_raw        counttime        itrans         irefer
     15905.009      0.09369660       9798.000        918.039         917.00          1.500         21.000       -158.500
     15910.012      0.08919778      17141.000       1528.94        1526.00          1.500         21.000       -158.500
     15915.018      0.09156327      18989.000       1738.7        1735.00          1.500         21.000       -158.500
     15919.993      0.08847838      19777.000       1749.84        1746.00          1.500         21.000       -160.500
     15925.005      0.08242926      20415.000       1682.79        1679.00          1.500         22.000       -159.500
     15930.021      0.08594435      19567.000       1681.67        1678.00          1.500         21.000       -153.500
     15935.057      0.08482075      19590.000       1661.64        1658.00          1.500         21.000       -140.500
     15939.960      0.08425868      19698.000       1659.73        1656.00          1.500         20.000       -142.500
     15945.002      0.08515639      19750.000       1681.84        1678.00          1.500         20.000       -142.500
     15949.979      0.08530131      19869.000       1694.85        1691.00          1.500         20.000       -142.500
     15954.977      0.08187105      20116.000       1646.92        1643.00          1.500         20.000       -142.500
     15960.062      0.08429160      20014.000       1687.01        1683.00          1.500         19.000       -141.500
     15965.015      0.08490224      19953.000       1694.05        1690.00          1.500         19.000       -140.500
     15970.005      0.07821336      20148.000       1575.84        1572.00          1.500         20.000       -139.500
     15975.049      0.07940952      20007.000       1588.75        1585.00          1.500         20.000       -139.500
     15980.011      0.07874154      20176.000       1588.69        1585.00          1.500         20.000       -141.500
     15985.011      0.08046707      20243.000       1628.89        1625.00          1.500         21.000       -141.500
     15989.996      0.08108495      20076.000       1627.86        1624.00          1.500         19.000       -140.500
     15994.968      0.07492586      20107.000       1506.53        1503.00          1.500         21.000       -140.500
     16000.028      0.07577105      19842.000       1503.45        1500.00          1.500         21.000       -139.500
     16005.006      0.07831433      19505.000       1527.52        1524.00          1.500         20.000       -139.500
     16010.038      0.08014440      20137.000       1613.87        1610.00          1.500         20.000       -140.500
     16015.022      0.07489009      19810.000       1483.57        1480.00          1.500         21.000       -139.500
     16020.026      0.07538319      19201.000       1447.43        1444.00          1.500         21.000       -142.500
     16025.034      0.07627671      18963.000       1446.44        1443.00          1.500         21.000       -141.500
     16030.010      0.07476420      18797.000       1405.34        1402.00          1.500         22.000       -141.500
     16035.024      0.07410364      18857.000       1397.37        1394.00          1.500         21.000       -141.500
     16040.006      0.07373928      18747.000       1382.39        1379.00          1.500         21.000       -141.500
     16045.044      0.07992554      18852.000       1506.76        1503.00          1.500         21.000       -142.500
     16049.998      0.07111059      19020.000       1352.52        1349.00          1.500         21.000       -141.500
     16055.024      0.07806205      19074.000       1488.96        1485.00          1.500         21.000       -140.500
     16059.985      0.07626196      19552.000       1491.07        1487.00          1.500         21.000       -141.500
     16064.983      0.07450957      19771.000       1473.13        1469.00          1.500         21.000       -141.500
     16070.019      0.07211556      19981.000       1440.94        1437.00          1.500         20.000       -143.500
     16074.989      0.07448755      20204.000       1504.95        1501.00          1.500         20.000       -142.500
     16079.979      0.07500057      20399.000       1529.94        1526.00          1.500         21.000       -141.500
     16085.042      0.08145304      20654.000       1682.33        1678.00          1.500         21.000       -140.500
     16089.952      0.08083551      20676.000       1671.36        1667.00          1.500         20.000       -141.500
     16095.021      0.08403000      20619.000       1732.61        1728.00          1.500         21.000       -141.500
     16095.194      0.08658466      27388.000       2371.38        2365.00          2.000         27.000       -189.000
     16095.402      0.08388922      27311.000       2291.1        2285.00          2.000         27.000       -190.000
     16095.679      0.08652066      27325.000       2364.18        2358.00          2.000         27.000       -190.000
     16095.817      0.08288823      27385.000       2269.89        2264.00          2.000         28.000       -191.000
     16096.042      0.08806478      27311.000       2405.14        2399.00          2.000         28.000       -192.000
     16096.250      0.08459460      27374.000       2315.69        2310.00          2.000         28.000       -192.000
     16096.406      0.08749198      27314.000       2389.76        2384.00          2.000         28.000       -191.000
     16096.596      0.08800488      27360.000       2407.81        2402.00          2.000         28.000       -189.000
     16096.804      0.08535251      27364.000       2335.59        2330.00          2.000         28.000       -205.000
     16097.011      0.08929619      27346.000       2441.89        2436.00          2.000         29.000       -217.000
     16097.236      0.09132228      27345.000       2497.21        2491.00          2.000         29.000       -218.000
     16097.410      0.08633066      27418.000       2367.01        2361.00          2.000         29.000       -217.000
     16097.600      0.08932455      27364.000       2444.28        2438.00          2.000         29.000       -216.000
     16097.842      0.09074194      27380.000       2484.51        2478.00          2.000         29.000       -216.000
     16097.998      0.09085125      27446.000       2493.5        2487.00          2.000         28.000       -214.000
     16098.241      0.09014358      27496.000       2478.59        2472.00          2.000         28.000       -215.000
     16098.431      0.09138369      27419.000       2505.65        2499.00          2.000         28.000       -217.000
     16098.604      0.09062084      27462.000       2488.63        2482.00          2.000         28.000       -216.000
     16098.812      0.09040270      27473.000       2483.63        2477.00          2.000         28.000       -214.000
     16099.037      0.09421102      27470.000       2587.98        2581.00          2.000         29.000       -214.000
     16099.210      0.09601382      27497.000       2640.09        2633.00          2.000         29.000       -215.000
     16099.366      0.09383275      27517.000       2582        2575.00          2.000         28.000       -214.000
     16099.608      0.09251405      27551.000       2548.85        2542.00          2.000         28.000       -213.000
     16099.782      0.09530169      27597.000       2630.04        2623.00          2.000         28.000       -212.000
     16099.989      0.09691295      27521.000       2667.14        2660.00          2.000         28.000       -211.000
     16100.197      0.09700964      27471.000       2664.95        2658.00          2.000         28.000       -212.000
     16100.405      0.09711468      27462.000       2666.96        2660.00          2.000         28.000       -216.000
     16100.630      0.101937      27489.000       2802.15        2795.00          2.000         28.000       -216.000
     16100.821      0.101757      27469.000       2795.16        2788.00          2.000         28.000       -218.000
     16101.011      0.105724      27368.000       2893.45        2886.00          2.000         28.000       -220.000
     16101.219      0.10876      27443.000       2984.7        2977.00          2.000         29.000       -218.000
     16101.392      0.107011      27280.000       2919.27        2912.00          2.000         28.000       -220.000
     16101.635      0.104386      27226.000       2842.01        2835.00          2.000         28.000       -220.000
     16101.808      0.107774      27290.000       2941.14        2934.00          2.000         29.000       -223.000
     16102.050      0.107712      27323.000       2943.01        2936.00          2.000         30.000       -223.000
     16102.189      0.112608      27337.000       3078.36        3071.00          2.000         30.000       -221.000
     16102.397      0.110985      27312.000       3031.23        3024.00          2.000         29.000       -219.000
     16102.605      0.11374      27330.000       3108.51        3101.00          2.000         30.000       -220.000
     16102.812      0.114019      27354.000       3118.89        3111.00          2.000         30.000       -216.000
     16102.986      0.122782      27396.000       3363.72        3355.00          2.000         29.000       -221.000
     16103.176      0.12864      27367.000       3520.49        3511.00          2.000         29.000       -220.000
     16103.384      0.121216      27397.000       3320.96        3312.00          2.000         29.000       -222.000
     16103.627      0.123512      27382.000       3382.01        3373.00          2.000         29.000       -220.000
     16103.817      0.127836      27297.000       3489.53        3480.00          2.000         29.000       -218.000
     16104.008      0.13234      27347.000       3619.11        3609.00          2.000         28.000       -217.000
     16104.198      0.137398      27292.000       3749.85        3739.00          2.000         29.000       -215.000
     16104.406      0.139579      27320.000       3813.29        3802.00          2.000         28.000       -217.000
     16104.597      0.146363      27281.000       3992.94        3981.00          2.000         28.000       -216.000
     16104.805      0.1503      27574.000       4144.36        4132.00          2.000         29.000       -214.000
     16105.013      0.161712      27666.000       4473.93        4461.00          2.000         29.000       -214.000
     16105.221      0.170398      27698.000       4719.7        4706.00          2.000         29.000       -212.000
     16105.411      0.173376      27731.000       4807.88        4794.00          2.000         28.000       -208.000
     16105.602      0.181491      27587.000       5006.79        4992.00          2.000         29.000       -191.000
     16105.775      0.193541      27637.000       5348.89        5332.00          2.000         29.000       -193.000
     16106.018      0.198224      27649.000       5480.69        5463.00          2.000         28.000       -191.000
     16106.208      0.208457      27505.000       5733.62        5715.00          2.000         29.000       -191.000
     16106.399      0.214773      27309.000       5865.25        5847.00          2.000         28.000       -191.000
     16106.607      0.224652      27351.000       6144.45        6126.00          2.000         27.000       -191.000
     16106.763      0.235099      27374.000       6435.59        6416.00          2.000         28.000       -190.000
     16106.988      0.238519      27388.000       6532.55        6513.00          2.000         28.000       -189.000
     16107.179      0.259561      27397.000       7111.18        7091.00          2.000         28.000       -191.000
     16107.404      0.269229      27399.000       7376.6        7356.00          2.000         28.000       -191.000
     16107.630      0.27727      27326.000       7576.69        7556.00          2.000         29.000       -191.000
     16107.768      0.281573      27314.000       7690.9        7670.00          2.000         29.000       -191.000
     16107.994      0.2926      27379.000       8011.1        7990.00          2.000         29.000       -189.000
     16108.167      0.301438      27456.000       8276.27        8255.00          2.000         29.000       -188.000
     16108.410      0.321243      27502.000       8834.84        8812.00          2.000         29.000       -188.000
     16108.600      0.33171      27499.000       9121.69        9098.00          2.000         29.000       -187.000
     16108.860      0.336879      27531.000       9274.61        9251.00          2.000         28.000       -187.000
     16109.034      0.351133      27352.000       9604.19        9580.00          2.000         29.000       -188.000
     16109.172      0.367773      27339.000      10054.5       10029.00          2.000         28.000       -187.000
     16109.432      0.380222      27355.000      10401       10374.00          2.000         28.000       -187.000
     16109.554      0.396304      27407.000      10861.5       10833.00          2.000         29.000       -189.000
     16109.831      0.403327      27366.000      11037.4       11008.00          2.000         28.000       -191.000
     16110.039      0.4248      27428.000      11651.4       11620.00          2.000         28.000       -190.000
     16110.195      0.428      27497.000      11768.7       11737.00          2.000         29.000       -188.000
     16110.386      0.446269      27296.000      12181.4       12149.00          2.000         29.000       -187.000
     16110.594      0.46133      27352.000      12618.3       12584.00          2.000         29.000       -188.000
     16110.819      0.457846      27378.000      12534.9       12501.00          2.000         29.000       -188.000
     16111.027      0.47472      27415.000      13014.4       12979.00          2.000         29.000       -188.000
     16111.236      0.487736      27268.000      13299.6       13264.00          2.000         28.000       -188.000
     16111.392      0.500217      27302.000      13656.9       13620.00          2.000         29.000       -188.000
     16111.565      0.511341      27262.000      13940.2       13902.00          2.000         30.000       -187.000
     16111.808      0.508503      27287.000      13875.5       13837.00          2.000         30.000       -189.000
     16112.016      0.52213      27103.000      14151.3       14113.00          2.000         31.000       -188.000
     16112.207      0.537938      27104.000      14580.3       14541.00          2.000         30.000       -188.000
     16112.415      0.540823      27145.000      14680.7       14641.00          2.000         30.000       -205.000
     16112.606      0.555464      27022.000      15009.7       14970.00          2.000         30.000       -203.000
     16112.814      0.559191      27068.000      15136.2       15096.00          2.000         30.000       -202.000
     16113.005      0.580516      27091.000      15726.7       15685.00          2.000         30.000       -203.000
     16113.282      0.584244      27014.000      15782.8       15742.00          2.000         29.000       -205.000
     16113.403      0.594604      27070.000      16095.9       16054.00          2.000         29.000       -207.000
     16113.629      0.598847      27106.000      16232.4       16190.00          2.000         30.000       -204.000
     16113.820      0.61983      27075.000      16781.9       16737.00          2.000         29.000       -205.000
     16114.045      0.615042      27001.000      16606.7       16562.00          2.000         29.000       -204.000
     16114.184      0.616346      26978.000      16627.8       16583.00          2.000         29.000       -204.000
     16114.358      0.630993      27217.000      17173.7       17127.00          2.000         29.000       -205.000
     16114.600      0.638779      27307.000      17443.1       17395.00          2.000         29.000       -202.000
     16114.826      0.652611      27133.000      17707.3       17658.00          2.000         28.000       -196.000
     16114.999      0.650044      27194.000      17677.3       17629.00          2.000         29.000       -186.000
     16115.156      0.657744      27149.000      17857.1       17808.00          2.000         28.000       -186.000
     16115.398      0.667389      27191.000      18147       18097.00          2.000         28.000       -187.000
     16115.572      0.669912      27073.000      18136.5       18086.00          2.000         28.000       -187.000
     16115.815      0.658512      26896.000      17711.4       17662.00          2.000         27.000       -187.000
     16115.988      0.668951      26926.000      18012.2       17961.00          2.000         27.000       -187.000
     16116.179      0.653057      26994.000      17628.6       17578.00          2.000         27.000       -185.000
     16116.387      0.660018      27006.000      17824.4       17773.00          2.000         27.000       -185.000
     16116.596      0.668719      27090.000      18115.6       18064.00          2.000         28.000       -185.000
     16116.804      0.67359      27107.000      18259       18207.00          2.000         28.000       -187.000
     16117.047      0.675301      27031.000      18254.1       18202.00          2.000         28.000       -187.000
     16117.220      0.646431      26995.000      17450.4       17400.00          2.000         28.000       -185.000
     16117.411      0.640255      27082.000      17339.4       17288.00          2.000         27.000       -186.000
     16117.637      0.618371      27026.000      16712.1       16662.00          2.000         28.000       -188.000
     16117.810      0.601672      26853.000      16156.7       16108.00          2.000         28.000       -188.000
     16118.001      0.603548      26891.000      16230       16181.00          2.000         27.000       -187.000
     16118.210      0.593657      26916.000      15978.9       15930.00          2.000         27.000       -188.000
     16118.366      0.580745      26926.000      15637.1       15589.00          2.000         29.000       -186.000
     16118.609      0.60107      26839.000      16132.1       16083.00          2.000         29.000       -188.000
     16118.834      0.595691      26860.000      16000.3       15952.00          2.000         29.000       -190.000
     16118.991      0.640757      26887.000      17228       17178.00          2.000         29.000       -188.000
     16119.251      0.634739      26593.000      16879.6       16833.00          2.000         29.000       -186.000
     16119.407      0.636616      26587.000      16925.7       16879.00          2.000         30.000       -188.000
     16119.633      0.627802      26571.000      16681.3       16636.00          2.000         29.000       -190.000
     16119.772      0.617608      26604.000      16430.8       16386.00          2.000         28.000       -191.000
     16119.963      0.619799      26618.000      16497.8       16452.00          2.000         29.000       -189.000
     16120.223      0.622862      26410.000      16449.8       16404.00          2.000         29.000       -189.000
     16120.431      0.604138      26431.000      15968       15923.00          2.000         28.000       -190.000
     16120.605      0.595302      26481.000      15764.2       15719.00          2.000         29.000       -189.000
     16120.813      0.609427      26552.000      16181.5       16134.00          2.000         29.000       -190.000
     16120.987      0.599607      26470.000      15871.6       15824.00          2.000         29.000       -187.000
     16121.195      0.586464      26452.000      15513.2       15465.00          2.000         30.000       -188.000
     16121.404      0.576744      26431.000      15243.9       15196.00          2.000         29.000       -189.000
     16121.647      0.562304      26451.000      14873.5       14825.00          2.000         29.000       -191.000
     16121.786      0.562353      26187.000      14726.3       14677.00          2.000         30.000       -191.000
     16122.046      0.548281      26215.000      14373.2       14322.00          2.000         29.000       -190.000
     16122.202      0.546057      26241.000      14329.1       14276.00          2.000         29.000       -190.000
     16122.411      0.529252      26228.000      13881.2       13828.00          2.000         29.000       -189.000
     16122.602      0.528303      26245.000      13865.3       13810.00          2.000         29.000       -190.000
     16122.828      0.529483      26278.000      13913.8       13856.00          2.000         29.000       -187.000
     16122.984      0.51409      26087.000      13411.1       13353.00          2.000         29.000       -188.000
     16123.192      0.518326      26142.000      13550.1       13489.00          2.000         29.000       -190.000
     16123.418      0.520717      26151.000      13617.3       13553.00          2.000         28.000       -190.000
     16123.574      0.549948      26165.000      14389.4       14320.00          2.000         30.000       -188.000
     16123.783      0.552578      25965.000      14347.7       14279.00          2.000         29.000       -185.000
     16124.026      0.576745      26015.000      15004       14933.00          2.000         29.000       -187.000
     16124.182      0.555808      25880.000      14384.3       14316.00          2.000         28.000       -189.000
     16124.425      0.568244      25791.000      14655.6       14583.00          2.000         28.000       -190.000
     16124.616      0.566096      25851.000      14634.2       14558.00          2.000         29.000       -192.000
     16124.808      0.579965      25875.000      15006.6       14927.00          2.000         29.000       -192.000
     16125.068      0.577646      25890.000      14955.3       14875.00          2.000         29.000       -190.000
     16125.207      0.570921      25912.000      14793.7       14713.00          2.000         29.000       -190.000
     16125.363      0.570981      25730.000      14691.3       14608.00          2.000         29.000       -188.000
     16125.589      0.568609      25785.000      14661.6       14576.00          2.000         29.000       -187.000
     16125.798      0.56421      25808.000      14561.1       14471.00          2.000         29.000       -186.000
     16126.041      0.560502      25749.000      14432.4       14346.00          2.000         30.000       -186.000
     16126.180      0.567385      25825.000      14652.7       14569.00          2.000         30.000       -186.000
     16126.388      0.571232      25727.000      14696.1       14615.00          2.000         30.000       -187.000
     16126.684      0.569243      25653.000      14602.8       14524.00          2.000         29.000       -190.000
     16126.788      0.556789      25598.000      14252.7       14178.00          2.000         29.000       -188.000
     16126.997      0.554989      25541.000      14175       14103.00          2.000         29.000       -189.000
     16127.118      0.550906      25615.000      14111.5       14041.00          2.000         29.000       -188.000
     16127.396      0.543268      25636.000      13927.2       13860.00          2.000         29.000       -188.000
     16127.622      0.54165      25444.000      13781.7       13717.00          2.000         29.000       -211.000
     16127.796      0.533459      25365.000      13531.2       13467.00          2.000         28.000       -203.000
     16128.022      0.49805      25246.000      12573.8       12516.00          2.000         29.000       -187.000
     16128.230      0.48654      25309.000      12313.9       12258.00          2.000         29.000       -185.000
     16128.404      0.473636      25324.000      11994.4       11940.00          2.000         29.000       -188.000
     16128.630      0.46356      25260.000      11709.5       11658.00          2.000         29.000       -189.000
     16128.821      0.467565      25075.000      11724.2       11674.00          2.000         29.000       -187.000
     16129.047      0.466095      25055.000      11678       11629.00          2.000         29.000       -185.000
     16129.186      0.45879      24987.000      11463.8       11417.00          2.000         29.000       -184.000
     16129.447      0.461113      25056.000      11553.7       11507.00          2.000         29.000       -184.000
     16129.568      0.464614      25088.000      11656.2       11609.00          2.000         29.000       -184.000
     16129.812      0.473454      25128.000      11897       11851.00          2.000         29.000       -187.000
     16130.003      0.472849      25163.000      11898.3       11852.00          2.000         28.000       -190.000
     16133.028      0.476966      19050.000       9086.2        9057.00          1.500         21.000       -140.500
     16136.019      0.482265      19332.000       9323.15        9293.00          1.500         21.000       -140.500
     16139.012      0.477346      19189.000       9159.79        9132.00          1.500         22.000       -140.500
     16142.005      0.499667      18901.000       9444.2        9409.00          1.500         22.000       -142.500
     16145.035      0.53161      19039.000      10121.3       10066.00          1.500         23.000       -143.500
     16148.030      0.546894      18800.000      10281.6       10227.00          1.500         22.000       -144.500
     16151.027      0.52712      18806.000       9913.01        9886.00          1.500         22.000       -142.500
     16154.008      0.530883      18833.000       9998.12        9973.00          1.500         22.000       -143.500
     16157.042      0.514556      18901.000       9725.62        9701.00          1.500         22.000       -145.500
     16159.990      0.520531      18975.000       9877.08        9852.00          1.500         22.000       -144.500
     16163.009      0.495092      19079.000       9445.86        9422.00          1.500         22.000       -144.500
     16165.976      0.507192      19127.000       9701.06        9677.00          1.500         22.000       -143.500
     16168.998      0.512923      19080.000       9786.56        9763.00          1.500         23.000       -143.500
     16172.020      0.498845      19227.000       9591.3        9568.00          1.500         22.000       -143.500
     16175.008      0.49162      19266.000       9471.54        9448.00          1.500         22.000       -145.500
     16177.945      0.495727      19343.000       9588.85        9565.00          1.500         22.000       -145.500
     16181.041      0.496234      19271.000       9562.93        9539.00          1.500         21.000       -144.500
     16183.998      0.494978      19498.000       9651.08        9627.00          1.500         23.000       -144.500
     16186.990      0.484141      19456.000       9419.45        9396.00          1.500         22.000       -142.500
     16190.020      0.485515      19455.000       9445.7        9422.00          1.500         22.000       -144.500
     16193.032      0.478359      19521.000       9338.04        9314.00          1.500         22.000       -144.500
     16195.976      0.473849      19609.000       9291.7        9267.00          1.500         23.000       -142.500
     16199.008      0.455179      19628.000       8934.26        8910.00          1.500         22.000       -143.500
     16202.042      0.443966      19623.000       8711.95        8688.00          1.500         22.000       -140.500
     16205.024      0.440517      19716.000       8685.23        8661.00          1.500         22.000       -141.500
     16208.025      0.435882      19772.000       8618.26        8594.00          1.500         22.000       -143.500
     16210.956      0.419523      19664.000       8249.5        8226.00          1.500         22.000       -142.500
     16214.012      0.425895      19638.000       8363.72        8340.00          1.500         22.000       -142.500
     16216.946      0.435225      19497.000       8485.58        8462.00          1.500         22.000       -142.500
     16219.986      0.422873      19595.000       8286.19        8263.00          1.500         23.000       -141.500
     16222.992      0.423058      19539.000       8266.13        8243.00          1.500         23.000       -141.500
     16226.035      0.42029      19397.000       8152.37        8130.00          1.500         22.000       -141.500
     16228.991      0.419674      19399.000       8141.26        8119.00          1.500         22.000       -145.500
     16232.071      0.417142      19303.000       8052.09        8030.00          1.500         22.000       -162.500
     16234.993      0.43047      19130.000       8234.88        8213.00          1.500         23.000       -175.500
     16237.970      0.44402      18992.000       8432.82        8411.00          1.500         22.000       -174.500
     16241.036      0.44977      18978.000       8535.74        8514.00          1.500         22.000       -174.500
     16243.962      0.434804      18918.000       8225.62        8204.00          1.500         22.000       -174.500
     16246.995      0.427478      18738.000       8010.08        7989.00          1.500         22.000       -176.500
     16249.976      0.406881      18645.000       7586.29        7566.00          1.500         22.000       -175.500
     16252.976      0.40535      18662.000       7564.65        7544.00          1.500         22.000       -176.500
     16256.012      0.388966      18582.000       7227.77        7208.00          1.500         22.000       -176.500
     16259.050      0.381358      18469.000       7043.3        7024.00          1.500         22.000       -176.500
     16261.982      0.374195      18375.000       6875.83        6857.00          1.500         22.000       -175.500
     16265.004      0.384878      18388.000       7077.14        7058.00          1.500         22.000       -173.500
     16267.957      0.416111      18292.000       7611.5        7592.00          1.500         23.000       -162.500
     16271.016      0.41818      18496.000       7734.66        7715.00          1.500         23.000       -164.500
     16273.971      0.446251      18417.000       8218.61        8198.00          1.500         23.000       -164.500
     16277.015      0.437877      18487.000       8095.04        8075.00          1.500         23.000       -164.500
     16280.007      0.447446      18582.000       8314.45        8294.00          1.500         22.000       -163.500
     16282.983      0.458064      18702.000       8566.72        8546.00          1.500         23.000       -163.500
     16285.995      0.463115      18789.000       8701.46        8681.00          1.500         23.000       -161.500
     16288.973      0.462877      19000.000       8794.66        8774.00          1.500         22.000       -160.500
     16291.987      0.470935      19107.000       8998.16        8977.00          1.500         22.000       -160.500
     16295.021      0.459286      19173.000       8805.9        8785.00          1.500         22.000       -160.500
     16297.984      0.457283      19317.000       8833.33        8812.00          1.500         22.000       -160.500
     16300.966      0.466127      19344.000       9016.77        8995.00          1.500         23.000       -159.500
     16304.003      0.447104      19495.000       8716.29        8695.00          1.500         23.000       -159.500
     16306.987      0.454036      19530.000       8867.33        8845.00          1.500         22.000       -160.500
     16309.973      0.453923      19697.000       8940.92        8918.00          1.500         23.000       -161.500
     16312.995      0.455505      19648.000       8949.75        8927.00          1.500         23.000       -160.500
     16316.001      0.445681      19795.000       8822.26        8800.00          1.500         22.000       -159.500
     16319.007      0.456562      19958.000       9112.07        9089.00          1.500         22.000       -161.500
     16321.997      0.457271      19998.000       9144.51        9121.00          1.500         23.000       -161.500
     16325.006      0.449108      20117.000       9034.71        9011.00          1.500         22.000       -163.500
     16327.963      0.445164      19986.000       8897.04        8871.00          1.500         22.000       -162.500
     16330.992      0.451794      19849.000       8967.67        8941.00          1.500         23.000       -158.500
     16333.969      0.455063      19939.000       9073.5        9050.00          1.500         23.000       -160.500
     16337.000      0.457409      20065.000       9177.9        9154.00          1.500         22.000       -161.500
     16340.014      0.440141      19942.000       8777.3        8752.00          1.500         22.000       -160.500
     16342.976      0.439703      19607.000       8621.25        8593.00          1.500         22.000       -159.500
     16346.011      0.436426      19469.000       8496.78        8464.00          1.500         22.000       -161.500
     16349.011      0.433251      19297.000       8360.44        8331.00          1.500         22.000       -159.500
     16351.940      0.432429      19022.000       8225.67        8199.00          1.500         22.000       -159.500
     16354.978      0.418684      18838.000       7887.17        7858.00          1.500         22.000       -162.500