File: stage_A/Test1.dat
# XDI/1.0  GSE/1.0
# Column.1: energy eV
# Column.2: mufluor
# Column.3: mutrans
# Column.4: ifluor # deadtime-corrected
# Column.5: ifluor_raw # not deadtime-corrected
# Column.6: i0
# Column.7: itrans
# Column.8: irefer
# Column.9: counttime sec
# Beamline.fluxestimate: 2.074e+09  ||  13XRM:ION:FluxOut.VAL
# Beamline.foe_slit_hpos: 0.5000  ||  13IDA:m5.VAL
# Beamline.foe_slit_hwid: 0.3500  ||  13IDA:m6.VAL
# Beamline.foe_slit_vpos: -0.4001  ||  13IDA:m7.VAL
# Beamline.foe_slit_vwid: 0.2000  ||  13IDA:m8.VAL
# Beamline.i0_sensitivity_number: 50  ||  13IDE:A1sens_num.VAL
# Beamline.i0_sensitivity_unit: pA/V  ||  13IDE:A1sens_unit.VAL
# Beamline.i1_sensitivity_number: 50  ||  13IDE:A2sens_num.VAL
# Beamline.i1_sensitivity_unit: nA/V  ||  13IDE:A2sens_unit.VAL
# Beamline.i2_sensitivity_number: 500  ||  13IDE:A3sens_num.VAL
# Beamline.i2_sensitivity_unit: nA/V  ||  13IDE:A3sens_unit.VAL
# Beamline.ssa_slit_hpos: 0.0102  ||  13IDA:m69.VAL
# Beamline.ssa_slit_hwid: 0.0400  ||  13IDA:m70.VAL
# Beamline.ssa_slit_vpos: 1.0012  ||  13IDA:m71.VAL
# Beamline.ssa_slit_vwid: 0.2500  ||  13IDA:m72.VAL
# Beamline.name: 13-ID-E, GSECARS
# Facility.ring_current: 102.2  ||  S:SRcurrentAI.VAL
# Facility.ring_lifetime: 10.5  ||  S:SRlifeTimeHrsCC.VAL
# Facility.name: APS
# Facility.xray_source: 3.6 cm undulator
# Monochromator.dspacing: 1.63716  ||  13IDE:En:dspace.VAL
# Monochromator.energy: 7200  ||  13IDE:En:Energy.VAL
# Monochromator.height: 26.40000  ||  13IDE:En:height.VAL
# Monochromator.theta_offset: 17.63169  ||  13IDA:m65.OFF
# Monochromator.xtal2_pitch: 0.1400  ||  13IDA:m67.VAL
# Monochromator.xtal2_rol: 0.8250  ||  13IDA:m68.VAL
# Monochromator.xtal2_y: 15.5196  ||  13IDA:m66.VAL
# Monochromator.xtal2_y_off: 11.6000  ||  13IDA:m66.OFF
# Monochromator.name: Si(311), LN2 cooled
# Undulator.energy: 7.434  ||  ID13us:Energy.VAL
# Detectors.i0: 20cm ion chamber, He
# Detectors.ifluor: Si SDD Vortex ME-4, 4 elements
# Detectors.ifluor_electronics: Quantum Xspress3 3.1.10
# Scaler.calc1: A  ||  13IDE:scaler1_calc1.CALC
# Scaler.calc2: B-(A*6.958e-05)  ||  13IDE:scaler1_calc2.CALC
# Scaler.calc3: C-(A*1.9438e-05)  ||  13IDE:scaler1_calc3.CALC
# Scaler.calc4: D-(A*1.6694e-05)  ||  13IDE:scaler1_calc4.CALC
# Scaler.frequency: 5e+07  ||  13IDE:scaler1.FREQ
# Scaler.read_delay: 0  ||  13IDE:scaler1.DLY
# Detectorstage.x: 3660.0  ||  13IDE:m34.VAL
# Detectorstage.y: 6.900  ||  13IDE:m4.VAL
# Detectorstage.z: 40.0000  ||  13IDE:m19.VAL
# Samplestage.coarsex: 59.5025  ||  13XRM:m4.VAL
# Samplestage.coarsey: 10.2230  ||  13XRM:m5.VAL
# Samplestage.coarsez: 181.7323  ||  13XRM:m6.VAL
# Samplestage.finex: 0  ||  13XRM:m1.VAL
# Samplestage.finey: 0  ||  13XRM:m2.VAL
# Samplestage.theta: 0  ||  13XRM:m3.VAL
# Scan.end_time: 2016-10-18 15:05:28
# Scan.start_time: 2016-10-18 14:54:00
# Scanparameters.e0: 7112.000
# Scanparameters.legend: Start, Stop, Step, K-space, Time
# Scanparameters.region1: -100.000,   -10.000,     2.500  False  1.00
# Scanparameters.region2: -10.000,     7.999,     0.100  False  2.00
# Scanparameters.region3: 1.449,     8.100,     0.050  True  1.00
# Scanparameters.scantype: xafs
# ///
# summed fe_ka fluorescence data from Pistone_2016_3_AII_45_a.001
# Dead-time correction applied
#------------------------------------------------------------------------------
#     energy       mufluor       mutrans        ifluor    ifluor_raw            i0        itrans        irefer     counttime
   7012     0.0051836    10.3696      677.4091           677        130684      4.099903     -4.700083             1
   7014.5     0.0049730    10.4286      689.4301           689        138634      4.099903     -5.700083             1
   7017     0.0051311    10.4302      712.4431           712        138848      4.099903     -4.700083             1
   7019.5     0.0053754    10.441      754.4808           754        140359      4.099903     -5.700083             1
   7022     0.0053964    10.445      760.4891           760        140926      4.099903     -5.700083             1
   7024.5     0.0054493    10.3254      681.3852           681        125041      4.099903     -5.700083             1
   7027     0.0050851    10.2418      727.4645           727        143057      5.099903     -5.700083             1
   7029.5     0.0054469    10.4591      778.5049           778        142926      4.099903     -5.700083             1
   7032     0.0055171    10.4616      790.5132           790        143285      4.099903     -5.700083             1
   7034.5     0.0056021    10.7447      805.5265           805        143791      3.099903     -4.700083             1
   7037     0.0055105    10.4704      796.5251           796        144547      4.099903     -4.700083             1
   7039.5     0.0057045    10.4752      828.5425           828        145244      4.099903     -5.700083             1
   7042     0.0059736    10.2638      873.5853           873        146240      5.099903     -4.700083             1
   7044.5     0.0062755    10.4852      920.6211           920        146701      4.099903     -6.700083             1
   7047     0.0064745    10.4903      954.6376           954        147446      4.099903     -8.700083             1
   7049.5     0.0058621    10.2757      867.5804           867        147997      5.099903     -7.700083             1
   7052     0.0061566    10.2718      907.6112           907        147422      5.099903     -8.700083             1
   7054.5     0.0069202    10.2723      1020.685          1020        147494      5.099903     -8.700083             1
   7057     0.0068433    10.4939      1012.689          1012        147982      4.099903     -8.700083             1
   7059.5     0.0070138    10.4994      1043.706          1043        148808      4.099903     -7.700083             1
   7062     0.0074271    10.2871      1111.763          1111        149691      5.099903     -8.700083             1
   7064.5     0.0075033    10.5086      1126.783          1126        150171      4.099903     -9.700083             1
   7067     0.0078960    10.5137       1191.84          1191        150942      4.099903     -6.700083             1
   7069.5     0.0082808    10.5176      1254.883          1254        151541      4.099903     -0.700083             1
   7072     0.0082586    10.5299       1266.91          1266        153405      4.099903     -1.700083             1
   7074.5     0.0087148    10.5262       1331.95          1331        152838      4.099903     -0.700083             1
   7077     0.0089001    10.5318      1367.989          1367        153705      4.099903     -0.700083             1
   7079.5     0.0094882    10.8214      1473.075          1472        155254      3.099903     -0.700083             1
   7082     0.0099833    10.5465      1557.151          1556        155976      4.099903     -0.700083             1
   7084.5     0.0107285    10.5512      1681.241          1680        156708      4.099903     -0.700083             1
   7087     0.0111002    10.5522      1741.295          1740        156871      4.099903     -1.700083             1
   7089.5     0.0115121    10.5563      1813.355          1812        157517      4.099903     -1.700083             1
   7092     0.0129968    10.3451       2061.57          2060        158621      5.099903     -0.700083             1
   7094.5     0.0139806    10.5647      2220.698          2219        158841      4.099903     -0.700083             1
   7097     0.0149805    10.5699      2391.873          2390        159666      4.099883       -0.7001             1
   7099.5     0.0166002    10.5754      2665.114          2663        160547      4.099883       -0.7001             1
   7102     0.0187526    10.5822       3031.42          3029        161653      4.099903     -0.700083             1
   7102.1     0.0198849    10.7134      6436.206          6431        323673      7.199903     -1.400083             2
   7102.2     0.0195266    10.715      6330.146          6325        324180      7.199903     -1.400083             2
   7102.3     0.0199975    10.7149      6482.246          6477        324152      7.199903      3.599917             2
   7102.4     0.0199275    10.5853      6462.254          6457        324288      8.199903      8.599917             2
   7102.5     0.0198757    10.5865      6453.203          6448        324678      8.199903      8.599917             2
   7102.6     0.0205290    10.7128      6640.402          6635        323464      7.199903      8.599917             2
   7102.7     0.0200360    10.7156      6499.268          6494        324380      7.199903      8.599917             2
   7102.8     0.0203334    10.714      6585.402          6580        323871      7.199903      8.599917             2
   7102.9     0.0206938    10.7168      6720.536          6715        324761      7.199903      5.599917             2
   7103     0.0209807    10.7132      6789.527          6784        323608      7.199922     -0.400067             2
   7103.1     0.0208988    10.8645      6774.569          6769        324160      6.199903     -0.400083             2
   7103.21     0.0210617    10.7157      6832.573          6827        324407      7.199903      2.599917             2
   7103.3     0.0206531    10.7143      6690.433          6685        323943      7.199903      9.599917             2
   7103.4     0.0210874    10.5847      6834.607          6829        324109      8.199903      9.599917             2
   7103.5     0.0214465    10.7146       6949.68          6944        324048      7.199903      10.59992             2
   7103.6     0.0215183    10.7161      6983.716          6978        324548      7.199903      8.599917             2
   7103.7     0.0215225    10.5839      6969.758          6964        323836      8.199903      8.599917             2
   7103.8     0.0216413    10.5845      7012.793          7007        324047      8.199903      8.599917             2
   7103.9     0.0217103    10.5855      7041.765          7036        324351      8.199903      8.599917             2
   7104     0.0222609    10.583      7202.911          7197        323568      8.199903      8.599917             2
   7104.1     0.0219327    10.7142      7104.846          7099        323939      7.199903      7.599917             2
   7104.2     0.0215987    10.7157      7006.754          7001        324406      7.199903      8.599917             2
   7104.3     0.0223631    10.5839          7242          7236        323837      8.199903      8.599917             2
   7104.4     0.0220293    10.5878      7161.929          7156        325109      8.199903      8.599917             2
   7104.5     0.0229058    10.7163      7435.167          7429        324597      7.199903      8.599917             2
   7104.6     0.0231244    10.8641      7493.161          7487        324037      6.199903      9.599917             2
   7104.7     0.0228261    10.7137      7390.134          7384        323758      7.199903      9.599917             2
   7104.8     0.0229165    10.5864      7440.199          7434        324665      8.199903      8.599917             2
   7104.9     0.0231591    10.7154      7511.185          7505        324330      7.199903      8.599917             2
   7105     0.0235558    10.7151      7637.393          7631        324226      7.199903      8.599917             2
   7105.1     0.0236877    10.5847      7677.406          7671        324109      8.199903      8.599917             2
   7105.2     0.0241669    10.5838      7825.468          7819        323810      8.199903      8.599917             2
   7105.3     0.0243836    10.585      7905.554          7899        324216      8.199903      8.599917             2
   7105.4     0.0242368    10.5845      7853.507          7847        324033      8.199903      8.599917             2
   7105.5     0.0243009    10.7153      7880.616          7874        324293      7.199903      8.599917             2
   7105.6     0.0243882    10.5855      7910.569          7904        324361      8.199903      7.599917             2
   7105.7     0.0244136    10.5834      7902.546          7896        323694      8.199903      6.599917             2
   7105.8     0.0253995    10.5844      8229.906          8223        324019      8.199903      8.599917             2
   7105.9     0.0255104    10.5836      8258.931          8252        323747      8.199903      8.599917             2
   7106     0.0250704    10.4683       8114.81          8108        323681      9.199883        6.5999             2
   7106.1     0.0252641    10.5842      8183.886          8177        323934      8.199903      6.599917             2
   7106.2     0.0252642    10.4709      8198.924          8192        324527      9.199903      7.599917             2
   7106.3     0.0264325    10.5836      8557.273          8550        323741      8.199903      7.599917             2
   7106.4     0.0257747    10.5852      8358.044          8351        324273      8.199903      5.599917             2
   7106.5     0.0261182    10.5848      8466.099          8459        324145      8.199903      6.599917             2
   7106.6     0.0272786    10.587      8861.527          8854        324853      8.199903      6.599917             2
   7106.7     0.0273887    10.5861      8889.541          8882        324570      8.199903      6.599917             2
   7106.8     0.0270122    10.4656      8719.395          8712        322795      9.199903      8.599917             2
   7106.9     0.0276513    10.5873      8985.612          8978        324962      8.199903      7.599917             2
   7107     0.0274028    10.5825      8861.552          8854        323381      8.199903      7.599917             2
   7107.1     0.0282611    10.5906      9213.888          9206        326027      8.199903      8.599917             2
   7107.2     0.0283548    10.5881      9220.852          9213        325195      8.199903      8.599917             2
   7107.3     0.0280974    10.7221      9173.864          9166        326502      7.199903      8.599917             2
   7107.4     0.0289307    10.5894      9421.104          9413        325644      8.199903      8.599917             2
   7107.5     0.0291126    10.4754      9490.189          9482        325982      9.199903      9.599917             2
   7107.6     0.0291392    10.5885      9480.169          9472        325341      8.199903      9.599917             2
   7107.7     0.0296936    10.5896      9671.339          9663        325704      8.199903      8.599917             2
   7107.8     0.0298070    10.5875      9687.388          9679        325004      8.199903      10.59992             2
   7107.9     0.0301618    10.474      9818.523          9810        325528      9.199903      9.599917             2
   7108     0.0312832    10.4726      10168.88         10160        325059      9.199883        9.5999             2
   7108.1     0.0310070    10.475      10103.76         10095        325854      9.199903      9.599917             2
   7108.2     0.0315948    10.5881      10274.98         10266        325211      8.199903      9.599917             2
   7108.3     0.0327270    10.59      10663.36         10654        325828      8.199903      8.599917             2
   7108.4     0.0323604    10.5908      10552.26         10543        326086      8.199903      8.599917             2
   7108.5     0.0326223    10.5917      10647.41         10638        326384      8.199903      9.599917             2
   7108.6     0.0330025    10.7216      10769.54         10760        326325      7.199903      7.599917             2
   7108.7     0.0334132    10.7228      10916.65         10907        326717      7.199903      8.599917             2
   7108.8     0.0335714    10.7212       10950.7         10941        326191      7.199903      7.599917             2
   7108.9     0.0347229    10.7205      11319.09         11309        325984      7.199903      6.599917             2
   7109     0.0356961    10.4771      11656.45         11646        326547      9.199883        7.5999             2
   7109.1     0.0360041    10.5909      11741.54         11731        326117      8.199903      8.599917             2
   7109.2     0.0368995    10.4763      12038.92         12028        326262      9.199903      6.599917             2
   7109.3     0.0367904    10.4763      12003.86         11993        326277      9.199903      8.599917             2
   7109.4     0.0379831    10.4763      12393.29         12382        326284      9.199903      7.599917             2
   7109.5     0.0386861    10.4755      12612.42         12601        326019      9.199903      7.599917             2
   7109.6     0.0396002    10.3743      12935.84         12924        326661       10.1999      7.599917             2
   7109.7     0.0406928    10.37      13236.11         13224        325269       10.1999      6.599917             2
   7109.8     0.0414447    10.4729      13476.29         13464        325163      9.199903      7.599917             2
   7109.9     0.0428308    10.3739         13985         13972        326517       10.1999      7.599917             2
   7110     0.0445989    10.3691      14493.47         14480        324974       10.1999      7.599917             2
   7110.1     0.0454469    10.4733      14784.09         14770        325305      9.199903      7.599917             2
   7110.2     0.0468941    10.3733      15303.46         15289        326341       10.1999      7.599917             2
   7110.3     0.0487084    10.5875      15831.07         15816        325017      8.199903      7.599917             2
   7110.4     0.0512532    10.5877      16662.12         16646        325094      8.199903      7.599917             2
   7110.5     0.0533032    10.5881      17334.85         17318        325212      8.199903      6.599917             2
   7110.6     0.0558898    10.7196      18202.02         18184        325677      7.199903      6.599917             2
   7110.7     0.0590353    10.583      19102.05         19083        323570      8.199903      6.599917             2
   7110.8     0.0628745    10.585       20383.8         20363        324198      8.199903      6.599917             2
   7110.9     0.0666613    10.714      21589.53         21567        323869      7.199903      6.599917             2
   7111     0.0709145    10.7163      23018.55         22994        324596      7.199903      7.599917             2
   7111.1     0.0762614    10.713      24672.61         24646        323527      7.199903      5.599917             2
   7111.2     0.0807821    10.5828         26131         26102        323475      8.199903      4.599917             2
   7111.3     0.0840080    10.5805      27114.42         27084        322760      8.199903      5.599917             2
   7111.4     0.0872619    10.4692      28271.12         28239        323980      9.199903      4.599917             2
   7111.5     0.0922300    10.5807      29771.38         29737        322795      8.199903      4.599917             2
   7111.6     0.0946870    10.58      30544.69         30509        322586      8.199903      5.599917             2
   7111.7     0.0977092    10.5801      31521.48         31484        322605      8.199903      4.599917             2
   7111.8     0.0991319    10.4657      32003.16         31965        322834      9.199903      5.599917             2
   7111.9     0.1008743    10.5773       32453.9         32415        321726      8.199903      5.599917             2
   7112     0.1038303    10.4662      33536.66         33496        322995      9.199903      6.599917             2
   7112.1     0.1055543    10.4662      34093.73         34052        322997      9.199903      6.599917             2
   7112.2     0.1101877    10.4647      35538.28         35494        322525      9.199903      5.599917             2
   7112.3     0.1143366    10.3629      36924.66         36878        322947       10.1999      6.599917             2
   7112.4     0.1195506    10.4633      38504.26         38455        322075      9.199903      5.599917             2
   7112.5     0.1249189    10.4638         40250         40197        322209      9.199903      6.599917             2
   7112.6     0.1317778    10.4641      42475.02         42418        322323      9.199903      4.599917             2
   7112.7     0.1367751    10.3627      44165.93         44105        322909       10.1999      4.599917             2
   7112.8     0.1468450    10.4623       47246.2         47179        321742      9.199903      4.599917             2
   7112.9     0.1547043    10.4655      49934.85         49862        322776      9.199903      5.599917             2
   7113     0.1628539    10.4619      52374.95         52297        321607      9.199883       -4.4001             2
   7113.1     0.1683007    10.5781      54187.62         54105        321969      8.199903     -6.400083             2
   7113.2     0.1733768    10.7085      55842.25         55756        322086      7.199883       -5.4001             2
   7113.3     0.1768037    10.5738      56680.43         56592        320584      8.199903     -5.400083             2
   7113.4     0.1784450    10.5775      57417.19         57327        321764      8.199903     -4.400083             2
   7113.5     0.1782846    10.5772      57350.59         57261        321680      8.199903     -4.400083             2
   7113.6     0.1748354    10.7068      56218.16         56131        321549      7.199903     -4.400083             2
   7113.7     0.1686624    10.7066      54218.73         54136        321463      7.199903     -4.400083             2
   7113.8     0.1621215    10.5737      51967.56         51890        320547      8.199903     -4.400083             2
   7113.9     0.1541840    10.5726      49371.42         49300        320211      8.199903     -5.400083             2
   7114     0.1455549    10.4605      46746.56         46681        321161      9.199903     -5.400083             2
   7114.1     0.1378148    10.5751       44241.6         44181        321022      8.199903     -6.400083             2
   7114.2     0.1298599    10.7056      41705.68         41650        321159      7.199903     -6.400083             2
   7114.3     0.1227405    10.7053      39408.29         39357        321070      7.199903     -6.400083             2
   7114.4     0.1175918    10.7024      37643.85         37596        320123      7.199903     -4.400083             2
   7114.5     0.1132475    10.5733      36288.47         36243        320435      8.199903     -5.400083             2
   7114.6     0.1083351    10.5756      34793.87         34751        321169      8.199903     -5.400083             2
   7114.7     0.1050403    10.5746      33702.81         33662        320856      8.199903     -4.400083             2
   7114.8     0.1032186    10.4586      33086.73         33047        320550      9.199922     -3.400067             2
   7114.9     0.1019338    10.5697      32546.85         32508        319294      8.199903     -3.400083             2
   7115     0.1005634    10.4354      31496.75         31460        313203      9.199903     -4.400083             2
   7115.1     0.1004703    10.5421      31203.95         31168        310579      8.199903     -3.400083             2
   7115.2     0.1003504    10.4436      31687.25         31650        315766      9.199903     -4.400083             2
   7115.3     0.1014695    10.5678      32335.37         32297        318671      8.199903     -3.400083             2
   7115.4     0.1028551    10.5702      32857.36         32818        319453      8.199903     -3.400083             2
   7115.5     0.1036993    10.5687      33075.94         33036        318960      8.199883       -2.4001             2
   7115.6     0.1078343    10.699      34404.63         34363        319051      7.199903     -1.400083             2
   7115.7     0.1103638    10.5687       35202.3         35159        318966      8.199903     -2.400083             2
   7115.8     0.1132872    10.6969      36067.01         36022        318368      7.199903     -3.400083             2
   7115.9     0.1167481    10.57      37285.38         37238        319366      8.199903     -2.400083             2
   7116     0.1199438    10.6979      38222.74         38174        318672      7.199903     -2.400083             2
   7116.1     0.1247056    10.6983      39759.76         39708        318829      7.199903     -2.400083             2
   7116.2     0.1298512    10.6983      41398.91         41344        318818      7.199903     -2.400083             2
   7116.3     0.1344244    10.6815      42142.99         42087        313507      7.199903     -3.400083             2
   7116.4     0.1410169    10.6705      43727.64         43669        310088      7.199903     -3.400083             2
   7116.5     0.1485678    10.5464      46343.21         46279        311933      8.199903     -3.400083             2
   7116.6     0.1539631    10.5626      48808.15         48738        317012      8.199903     -2.400083             2
   7116.7     0.1611076    10.6949      51190.16         51115        317739      7.199903     -3.400083             2
   7116.8     0.1699163    10.6946      53973.23         53892        317646      7.199883       -3.4001             2
   7116.9     0.1776641    10.8464      56559.73         56472        318352      6.199903     -3.400083             2
   7117     0.1862836    10.6993      59450.54         59356        319140      7.199903     -3.400083             2
   7117.1     0.1939355    10.6945      61594.68         61494        317604      7.199903     -4.400083             2
   7117.2     0.2042089    10.6915      64666.21         64558        316667      7.199903     -3.400083             2
   7117.3     0.2151789    10.569      68652.83         68534        319050      8.199903     -4.400083             2
   7117.4     0.2257483    10.701      72166.07         72037        319675      7.199903     -3.400083             2
   7117.5     0.2386870    10.5692      76166.21         76026        319105      8.199903     -4.400083             2
   7117.6     0.2513713    10.3521      80312.13         80159        319496       10.1999     -4.400083             2
   7117.7     0.2655457    10.4545      84774.66         84607        319247      9.199903     -3.400083             2
   7117.8     0.2826526    10.3523      90320.78         90135        319547       10.1999     -2.400083             2
   7117.9     0.2978131    10.3517      95107.52         94905        319353       10.1999      0.599917             2
   7118     0.3112500    10.3517      99403.27         99185        319368       10.1999     -4.400083             2
   7118.1     0.3295727    10.4562      105395.7        105155        319795      9.199903     -3.400083             2
   7118.2     0.3484585    10.4536        111145        110882        318962      9.199903     -3.400083             2
   7118.3     0.3622344    10.5708      115778.8        115496        319624      8.199903     -4.400083             2
   7118.4     0.3777484    10.5712      120788.8        120485        319760      8.199903     -2.400083             2
   7118.5     0.3931206    10.7018      125771.9        125447        319932      7.199903     -3.400083             2
   7118.6     0.4111502    10.5698        131279        130929        319297      8.199903     -3.400083             2
   7118.7     0.4276803    10.5705      136662.7        136287        319544      8.199903     -3.400083             2
   7118.8     0.4423848    10.6989      141126.5        140728        319013      7.199903     -3.400083             2
   7118.9     0.4514579    10.4543        144099        143684        319186      9.199903     -4.400083             2
   7119     0.4616138    10.4534      147197.1        146763        318875      9.199903     -3.400083             2
   7119.1     0.4809258    10.4561      153774.1        153312        319746      9.199903     -2.400083             2
   7119.2     0.4975433    10.5682      158616.3        158128        318799      8.199903     -8.400083             2
   7119.3     0.5097573    10.3519      162831.8        162320        319430      10.19988       -9.4001             2
   7119.4     0.5240280    10.3519      167389.2        166852        319428       10.1999     -9.400083             2
   7119.5     0.5374474    10.4537      171429.6        170869        318970      9.199903     -10.40008             2
   7119.6     0.5506846    10.567      175356.7        174772        318434      8.199903     -9.400083             2
   7119.7     0.5632609    10.4547      179853.1        179243        319307      9.199903     -10.40008             2
   7119.8     0.5759029    10.3524      184055.1        183418        319594       10.1999     -10.40008             2
   7119.9     0.5888814    10.3506      187866.1        187207        319022       10.1999     -10.40008             2
   7120     0.5998761    10.351      191449.9        190765        319149       10.1999     -8.400083             2
   7120.56     0.6685479    10.5688      106631.4        106216        159497      4.099903     -4.700083             1
   7121.14     0.7409614    10.3497      118085.5        117585        159368      5.099903     -4.700083             1
   7121.74     0.8267668    10.3501      131806.5        131193        159424      5.099903     -4.700083             1
   7122.36     0.9142968    10.3476      145399.7        144665        159029      5.099903     -4.700083             1
   7123     1.00711    10.3487      160331.3        159449        159200      5.099903     -4.700083             1
   7123.66     1.09305    10.3485      173981.1        172952        159171      5.099903     -4.700083             1
   7124.34     1.17997    10.3476      187644.3        186461        159025      5.099903     -4.700083             1
   7125.03     1.25917    10.3459      199890.6        198555        158748      5.099903     -4.700083             1
   7125.74     1.32928    10.3462        211101        209621        158809      5.099883       -4.7001             1
   7126.48     1.39165    10.167      220975.6        219359        158787      6.099903     -4.700083             1
   7127.23     1.44252    10.3457      228962.2        227233        158724      5.099903     -4.700083             1
   7128     1.48777    10.1643      235599.7        233774        158358      6.099903     -4.700083             1
   7128.79     1.52028    10.1642      240719.4        238820        158339      6.099903     -4.700083             1
   7129.6     1.53884    10.1624      243225.6        241284        158058      6.099903     -4.700083             1
   7130.42     1.54788    10.3404      244388.7        242432        157886      5.099903     -4.700083             1
   7131.28     1.55781    10.1571      244920.2        242954        157221      6.099903     -4.700083             1
   7132.14     1.54726    10.3357      243154.8        241219        157152      5.099903     -4.700083             1
   7133.03     1.54089    10.3343      241815.1        239901        156932      5.099903     -4.700083             1
   7133.94     1.54863    10.3299      241948.1        240030        156234      5.099903     -4.700083             1
   7134.86     1.5381    10.3296      240229.5        238336        156186      5.099903     -5.700083             1
   7135.8     1.53138    10.3274      238647.4        236782        155838      5.099903     -4.700083             1
   7136.76     1.52532    10.3196      235876.1        234051        154640      5.099903     -4.700083             1
   7137.74     1.50893    10.3272      235112.2        233293        155814      5.099903     -3.700083             1
   7138.74     1.49675    10.3221      232023.7        230251        155018      5.099903     -4.700083             1
   7139.76     1.48314    10.3288      231465.6        229705        156065      5.099903     -4.700083             1
   7140.8     1.46793    10.3305      229491.6        227759        156337      5.099903     -4.700083             1
   7141.85     1.45033    10.3347      227684.6        225976        156988      5.099903     -3.700083             1
   7142.93     1.43823    10.3378      226489.7        224797        157478      5.099903     -4.700083             1
   7144.03     1.41959    10.3388      223764.1        222110        157626      5.099903     -3.700083             1
   7145.14     1.40281    10.3429      222040.4        220413        158283      5.099903     -5.700083             1
   7146.27     1.37506    10.1674      218424.9        216845        158848      6.099903     -4.700083             1
   7147.42     1.36105    10.344      215670.4        214130        158459      5.099903     -4.700083             1
   7148.59     1.34164    10.3473      213285.3        211775        158974      5.099903     -4.700083             1
   7149.79     1.31701    10.3517      210306.2        208834        159684      5.099903     -4.700083             1
   7151     1.29009    10.3418      203979.6        202591        158113      5.099903     -5.700083             1
   7152.23     1.27429    10.1766      204288.2        202893        160315      6.099903     -4.700083             1
   7153.48     1.25924    10.3569      202113.6        200748        160504      5.099903     -5.700083             1
   7154.74     1.24587    10.3541      199414.7        198083        160061      5.099903     -4.700083             1
   7156.03     1.22903    10.3601      197898.1        196585        161020      5.099903     -4.700083             1
   7157.33     1.2245    10.1771      196402.2        195106        160394      6.099903     -3.700083             1
   7158.66     1.21508    10.3615      195939.6        194651        161257      5.099903     -3.700083             1
   7159.99     1.21082    10.3599      194933.2        193655        160993      5.099903     -3.700083             1
   7161.36     1.2107    10.1812      194988.6        193712        161055      6.099903     -3.700083             1
   7162.74     1.21015    10.1841      195452.5        194170        161511      6.099903     -4.700083             1
   7164.14     1.21438    10.3631      196128.2        194834        161505      5.099903     -3.700083             1
   7165.56     1.22183    10.3627      197263.9        195953        161449      5.099903     -4.700083             1
   7167     1.23267    10.3631      199086.9        197760        161509      5.099903     -3.700083             1
   7168.46     1.24265    10.1882        201530        200169        162178      6.099903     -3.700083             1
   7169.93     1.25339    10.1873      203084.9        201704        162029      6.099903     -4.700083             1
   7171.43     1.2676    10.3709      206326.7        204906        162769      5.099903     -4.700083             1
   7172.94     1.28504    10.1873      208230.4        206779        162042      6.099903     -4.700083             1
   7174.48     1.30004    10.191      211426.7        209936        162631      6.099903     -4.700083             1
   7176.03     1.31479    10.1898      213575.5        212054        162441      6.099903     -5.700083             1
   7177.6     1.32244    10.1893      214721.6        213187        162368      6.099903     -5.700083             1
   7179.19     1.32913    10.3656      215197.9        213654        161909      5.099903     -4.700083             1
   7180.8     1.33204    10.3723      217129.4        215561        163005      5.099903     -4.700083             1
   7182.43     1.34378    10.3632      217064.8        215498        161533      5.099903     -4.700083             1
   7184.08     1.33956    10.3696      217767.2        216192        162566      5.099903     -4.700083             1
   7185.74     1.35173    10.19      219625.9        218025        162478      6.099903     -4.700083             1
   7187.43     1.35339    10.3686      219794.5        218189        162403      5.099903     -5.700083             1
   7189.14     1.36308    10.37      221668.1        220033        162623      5.099903     -5.700083             1
   7190.86     1.35775    10.375      221924.2        220286        163450      5.099903     -5.700083             1
   7192.6     1.35859    10.1922      221226.6        219599        162835      6.099903     -4.700083             1
   7194.37     1.37232    10.1924      223491.6        221837        162857      6.099903     -5.700083             1
   7196.15     1.37337    10.3741        224260        222590        163292      5.099903     -5.700083             1
   7197.95     1.36848    10.1973      223961.5        222296        163657      6.099903     -4.700083             1
   7199.76     1.36862    10.3757        223837        222176        163550      5.099903     -4.700083             1
   7201.6     1.36274    10.1998      223588.8        221930        164073      6.099903     -4.700083             1
   7203.46     1.35818    10.2031      223587.5        221925        164623      6.099922     -5.700067             1
   7205.34     1.37072    10.3774        224577        222903        163839      5.099903     -5.700083             1
   7207.23     1.36123    10.378      223155.4        221501        163937      5.099903     -5.700083             1
   7209.15     1.35409    10.3791      222227.1        220585        164115      5.099903     -5.700083             1
   7211.08     1.34712    10.3828      221897.5        220258        164720      5.099903     -5.700083             1
   7213.03     1.34805    10.3795      221313.9        219682        164173      5.099903     -5.700083             1
   7215.01     1.34003    10.3808      220303.5        218686        164402      5.099903     -5.700083             1
   7217     1.34689    10.3829        221879        220241        164734      5.099903     -6.700083             1
   7219.01     1.33526    10.386      220642.6        219021        165243      5.099903     -5.700083             1
   7221.04     1.33386    10.2055      220110.4        218498        165018      6.099903     -6.700083             1
   7223.08     1.33542    10.3827      219945.6        218335        164701      5.099903     -4.700083             1
   7225.15     1.33279    10.206      220029.9        218415        165090      6.099903     -5.700083             1
   7227.24     1.3289    10.3858      219548.7        217944        165211      5.099903     -5.700083             1
   7229.34     1.33263    10.3832      219592.9        217987        164781      5.099903     -5.700083             1
   7231.47     1.33152    10.3859        220011        218400        165233      5.099903     -6.700083             1
   7233.61     1.33208    10.6029      219834.6        218224        165031      4.099903     -5.700083             1
   7235.77     1.32755    10.5999      218417.2        216826        164526      4.099903     -4.700083             1
   7237.95     1.32951    10.5998      218728.4        217137        164518      4.099903     -5.700083             1
   7240.15     1.32407    10.3832      218193.5        216605        164790      5.099903     -4.700083             1
   7242.38     1.32764    10.6021      218931.2        217334        164902      4.099903     -5.700083             1
   7244.61     1.32827    10.6036      219349.7        217746        165139      4.099903     -4.700083             1
   7246.87     1.32991    10.359      213922.1        212398        160854      5.099903     -1.700083             1
   7249.15     1.3351    10.6012      219942.5        218329        164739      4.099903     -1.700083             1
   7251.44     1.3306    10.5972      218342.3        216751        164093      4.099903     -1.700083             1
   7253.76     1.33066    10.3849        219654        218045        165072      5.099903     -1.700083             1
   7256.09     1.34203    10.5995      220722.6        219099        164469      4.099903     -1.700083             1
   7258.44     1.34216    10.5983      220478.9        218858        164272      4.099903     -1.700083             1
   7260.82     1.34565    10.379        220826        219201        164104      5.099903     -1.700083             1
   7263.2     1.34631    10.5953      220505.7        218888        163785      4.099903     -0.700083             1
   7265.62     1.34558    10.8752      220443.1        218823        163827      3.099903     -0.700083             1
   7268.05     1.35147    10.598      221937.7        220299        164220      4.099903     -1.700083             1
   7270.49     1.3513    10.3818      222360.7        220712        164553      5.099903     -1.700083             1
   7272.96     1.36396    10.3826        224622        222947        164684      5.099903     -1.700083             1
   7275.45     1.34974    10.6014      222410.8        220764        164781      4.099903     -5.700083             1
   7277.95     1.36027    10.5967      223096.8        221440        164009      4.099903     -6.700083             1
   7280.48     1.35839    10.3776      222602.9        220954        163873      5.099903     -4.700083             1
   7283.02     1.35601    10.5989      222879.6        221226        164364      4.099903     -4.700083             1
   7285.58     1.35958    10.3737        221922        220282        163228      5.099903     -5.700083             1
   7288.16     1.36042    10.5991      223645.5        221982        164394      4.099903     -5.700083             1
   7290.77     1.3663    10.5945      223599.7        221937        163653      4.099903     -4.700083             1
   7293.39     1.36079    10.3796      223426.8        221765        164189      5.099903     -4.700083             1
   7296.02     1.3623    10.1962      222722.3        221070        163490      6.099903     -4.700083             1
   7298.68     1.3626    10.3704      221687.8        220053        162695      5.099903     -4.700083             1
   7301.36     1.35871    10.3687      220674.2        219053        162415      5.099903     -4.700083             1
   7304.06     1.36845    10.3635        221099        219473        161569      5.099903     -4.700083             1
   7306.77     1.36027    10.3715        221554        219919        162875      5.099903     -4.700083             1
   7309.5     1.36258    10.3655      220596.8        218978        161896      5.099903     -4.700083             1
   7312.26     1.35519    10.5872      220151.7        218534        162451      4.099903     -3.700083             1
   7315.03     1.3532    10.5838      219097.3        217496        161910      4.099903     -3.700083             1
   7317.82     1.35636    10.5781      218358.9        216769        160989      4.099903     -4.700083             1
   7320.63     1.35019    10.3631      218067.6        216482        161509      5.099903     -3.700083             1
   7323.46     1.3536    10.5781      217907.4        216327        160984      4.099903     -3.700083             1
   7326.31     1.36012    10.3561      218144.9        216562        160387      5.099903     -3.700083             1
   7329.18     1.35417    10.3584      217686.1        216109        160753      5.099903     -4.700083             1
   7332.06     1.35549    10.3534      216802.8        215237        159944      5.099903     -3.700083             1
   7334.97     1.359    10.3483      216277.5        214724        159145      5.099903     -4.700083             1
   7337.89     1.35216    10.3508      215711.3        214160        159531      5.099903     -3.700083             1
   7340.84     1.35031    10.1673      214472.8        212940        158832      6.099903     -3.700083             1
   7343.8     1.34986    10.3497      215113.1        213570        159359      5.099903     -3.700083             1
   7346.78     1.34847    10.1655      213785.3        212266        158539      6.099903     -3.700083             1
   7349.78     1.34971    10.3413      213295.3        211779        158030      5.099903     -3.700083             1
   7352.8     1.35982    10.3372      214006.9        212480        157379      5.099903     -3.700083             1
   7355.84     1.35329    10.3395      213466.3        211945        157739      5.099903     -2.700083             1
   7358.9     1.35311    10.3379      213097.4        211582        157487      5.099903     -0.700083             1
   7361.97     1.35504    10.3332      212406.9        210902        156753      5.099903     -0.700083             1